{
  "datasets": [
    {
      "filename": "ae.xpt",
      "label": "Adverse Events",
      "domain": "AE",
      "variables": [
        {
          "name": "STUDYID",
          "label": "Study Identifier",
          "type": "Char",
          "length": 20
        },
        {
          "name": "USUBJID",
          "label": "Unique Subject Identifier",
          "type": "Char",
          "length": 20
        },
        {
          "name": "DOMAIN",
          "label": "Domain Abbreviation",
          "type": "Char",
          "length": 4
        },
        {
          "name": "AESEQ",
          "label": "Sequence Number",
          "type": "Num",
          "length": 8
        },
        {
          "name": "AESER",
          "label": "Serious Event",
          "type": "Char",
          "length": 1
        }
      ],
      "records": {
        "STUDYID": ["CDISC-TEST", "CDISC-TEST", "CDISC-TEST"],
        "USUBJID": ["SUBJ1", "SUBJ2", "SUBJ3"],
        "DOMAIN": ["AE", "AE", "XX"],
        "AESEQ": [1, 2, 3],
        "AESER": ["N", "Y", "U"]
      }
    },
    {
      "filename": "cm.xpt",
      "label": "Concomitant Medications",
      "domain": "CM",
      "variables": [
        {
          "name": "STUDYID",
          "label": "Study Identifier",
          "type": "Char",
          "length": 20
        },
        {
          "name": "USUBJID",
          "label": "Unique Subject Identifier",
          "type": "Char",
          "length": 20
        },
        {
          "name": "DOMAIN",
          "label": "Domain Abbreviation",
          "type": "Char",
          "length": 4
        },
        {
          "name": "CMSEQ",
          "label": "Sequence Number",
          "type": "Num",
          "length": 8
        }
      ],
      "records": {
        "STUDYID": ["CDISC-TEST", "CDISC-TEST"],
        "USUBJID": ["SUBJ1", "SUBJ2"],
        "DOMAIN": ["CM", "CM"],
        "CMSEQ": [1, 2]
      }
    },
    {
      "filename": "adsl.xpt",
      "label": "Subject-Level Analysis Dataset",
      "domain": "ADSL",
      "variables": [
        {
          "name": "STUDYID",
          "label": "Study Identifier",
          "type": "Char",
          "length": 20
        },
        {
          "name": "USUBJID",
          "label": "Unique Subject Identifier",
          "type": "Char",
          "length": 20
        },
        {
          "name": "DOMAIN",
          "label": "Domain Abbreviation",
          "type": "Char",
          "length": 4
        },
        {
          "name": "SAFFL",
          "label": "Safety Population Flag",
          "type": "Char",
          "length": 1
        },
        {
          "name": "AGE",
          "label": "Age",
          "type": "Num",
          "length": 8
        }
      ],
      "records": {
        "STUDYID": ["CDISC-TEST", "CDISC-TEST", "CDISC-TEST"],
        "USUBJID": ["SUBJ1", "SUBJ2", "SUBJ3"],
        "DOMAIN": ["ADSL", "ADSL", "ADSL"],
        "SAFFL": ["Y", "N", "Y"],
        "AGE": [34, 47, 59]
      }
    }
  ]
}
